Folder: SAXS/doc/data

Note: README.rst
The SAXS module consists of a Pyhon library and 3 command line tools: ``saxsdog``, ``plotchi`` 
and ``converter``.

More Documentation is in `SAXS.pdf <SAXS.pdf>`_. or there http://ac-software.tugraz.at/SAXS/

File: powder.chi
out/agbeh5_1M_00001.chi
q [nm^-1]
Intensity
   1063
 0.0248487 0.000000000000000000e+00 0.000000000000000000e+00
 0.0579802 0.000000000000000000e+00 0.000000000000000000e+00
 0.0911118 0.000000000000000000e+00 0.000000000000000000e+00
 0.124243 0.000000000000000000e+00 0.000000000000000000e+00
 0.157375 0.000000000000000000e+00 0.000000000000000000e+00
 0.190506 0.000000000000000000e+00 0.000000000000000000e+00
 0.223638 3371 73.4412
 0.256769 4842.76 16.4886
 0.289901 3105.53 9.88999
 0.323032 2229.03 7.18421
 0.356163 1752.67 5.65794
 0.389294 1453.34 4.74454
 0.422426 1229.36 5.49678
 0.455557 1122.08 5.99822
 0.488688 1058.97 6.43637
 0.521819 1015.59 6.97504
 0.554949 932.662 4.41952
 0.58808 870.128 3.5194
 0.621211 825.393 3.0868
 0.654341 791.909 2.80883
 0.687472 771.439 2.59142
 0.720602 753.829 2.41853
 0.753732 736.561 2.3108
 0.786862 722.517 2.19198
 0.819992 723.614 2.08276
 0.853122 719.595 2.0117
 0.886252 726.029 1.99558
 0.919381 841.685 2.08562
 0.952511 1676.51 2.85106
 0.98564 1512.74 2.62074
 1.01877 954.795 2.02485
 1.0519 713.829 1.70497
 1.08503 687.09 1.62562
 1.11816 674.193 1.57837
 1.15128 667.887 1.53947
 1.18441 665.177 1.50625
 1.21754 660.436 1.47454
 1.25067 660.276 1.44923
 1.2838 656.056 1.41522
 1.31692 655.722 1.38887
 1.35005 654.652 1.37218
 1.38318 653.614 1.34697
 1.4163 651.912 1.3218
 1.44943 651.042 1.30368
 1.48256 648.611 1.28427
 1.51568 646.202 1.26286
 1.54881 643.696 1.24346
 1.58193 642.739 1.22688
 1.61506 641.178 1.20853
 1.64818 636.781 1.19197
 1.68131 633.16 1.17642
 1.71443 630.301 1.15881
 1.74756 626.576 1.1429
 1.78068 621.499 1.12744
 1.8138 620.331 1.11573
 1.84693 617.333 1.10149
 1.88005 614.057 1.08629
 1.91317 638.312 1.09841
 1.94629 782.971 1.20497
 1.97942 737.613 1.15714
 2.01254 640.78 1.07053
 2.04566 596.697 1.02242
 2.07878 584.744 1.00279
 2.1119 577.815 0.98941
 2.14502 573.691 0.976864
 2.17814 571.775 0.980649
 2.21126 583.407 1.0493
 2.24438 585.217 1.07776
 2.2775 586.045 1.09953
 2.31062 585.896 1.11259
 2.34374 561.672 1.02028
 2.37685 550.491 0.980109
 2.40997 541.189 0.955014
 2.44309 535.659 0.938964
 2.4762 529.257 0.9205
 2.50932 523.908 0.907431
 2.54244 517.137 0.889442
 2.57555 512.318 0.877396
 2.60867 507.968 0.864656
 2.64178 503.143 0.851809
 2.67489 499.015 0.840651
 2.70801 495.049 0.831655
 2.74112 491.41 0.821874
 2.77423 486.632 0.810556
 2.80735 483.743 0.803482
 2.84046 480.636 0.792255
 2.87357 481.869 0.788713
 2.90668 502.166 0.799368
 2.93979 578.466 0.851975
 2.9729 536.382 0.814857
 3.00601 482.542 0.767554
 3.03912 464.66 0.748613
 3.07223 459.632 0.738865
 3.10533 457.715 0.732419
 3.13844 456.299 0.726248
 3.17155 455.44 0.721099
 3.20465 454.113 0.716174
 3.23776 454.972 0.712787
 3.27087 456.413 0.709228
 3.30397 457.372 0.706164
 3.33707 461.336 0.704268
 3.37018 464.935 0.703263
 3.40328 470.405 0.703354
 3.43638 476.127 0.703493
 3.46949 482.076 0.705632
 3.50259 487.589 0.704041
 3.53569 489.994 0.702525
 3.56879 491.563 0.695573
 3.60189 489.485 0.689703
 3.63499 484.391 0.684175
 3.66808 476.287 0.677202
 3.70118 468.398 0.671166
 3.73428 458.527 0.663697
 3.76738 450.45 0.657057
 3.80047 441.534 0.649938
 3.83357 433.947 0.644426
 3.86666 428.541 0.639139
 3.89976 432.739 0.642032
 3.93285 453.445 0.656237
 3.96594 439.706 0.676183
 3.99903 421.206 0.683754
 4.03213 417.441 0.691919
 4.06522 415.912 0.704312
 4.09831 406.354 0.673556
 4.1314 400.358 0.649903
 4.16448 395.986 0.64046
 4.19757 392.799 0.632334
 4.23066 388.957 0.625426
 4.26375 385.369 0.618792
 4.29683 383.711 0.614
 4.32992 379.66 0.608827
 4.363 377.163 0.603644
 4.39609 375.459 0.600433
 4.42917 373.841 0.597241
 4.46225 371.98 0.593317
 4.49533 369.046 0.588817
 4.52841 366.35 0.585735
 4.56149 364.594 0.581679
 4.59457 363.721 0.579907
 4.62765 362.128 0.576905
 4.66073 359.92 0.573499
 4.69381 358.749 0.570824
 4.72688 357.129 0.568646
 4.75996 354.97 0.565041
 4.79303 353.765 0.548996
 4.82611 351.617 0.552995
 4.85918 353.067 0.557478
 4.89225 361.005 0.562936
 4.92532 377.294 0.574221
 4.9584 360.601 0.561974
 4.99147 349.402 0.554882
 5.02453 344.699 0.552996
 5.0576 342.745 0.55361
 5.09067 341.434 0.553619
 5.12374 340.399 0.554509
 5.1568 339.573 0.555263
 5.18987 337.525 0.554074
 5.22293 336.334 0.554041
 5.25599 334.378 0.550329
 5.28906 333.803 0.546249
 5.32212 333.577 0.544561
 5.35518 331.706 0.543605
 5.38824 330.532 0.543399
 5.4213 329.133 0.543463
 5.45436 328.099 0.54299
 5.48741 326.707 0.543073
 5.52047 325.808 0.542816
 5.55352 324.276 0.542121
 5.58658 323.552 0.542114
 5.61963 321.83 0.541315
 5.65268 320.069 0.540494
 5.68574 320.168 0.541165
 5.71879 323.711 0.578433
 5.75184 326.247 0.601805
 5.78488 328.325 0.622579
 5.81793 329.448 0.641574
 5.85098 324.325 0.611663
 5.88402 324.544 0.599339
 5.91707 326.797 0.59525
 5.95011 318.669 0.58306
 5.98316 313.237 0.574745
 6.0162 310.225 0.569633
 6.04924 309.286 0.567602
 6.08228 307.698 0.56495
 6.11532 305.552 0.561522
 6.14836 304.743 0.560002
 6.18139 303.215 0.558506
 6.21443 302.737 0.554811
 6.24746 301.683 0.551016
 6.2805 301.253 0.548368
 6.31353 299.286 0.546592
 6.34656 297.987 0.545541
 6.37959 296.743 0.543199
 6.41262 296.166 0.542805
 6.44565 296.035 0.54277
 6.47868 293.669 0.540512
 6.5117 293.273 0.540131
 6.54473 292.214 0.538569
 6.57775 292.16 0.538553
 6.61078 290.542 0.537192
 6.6438 289.183 0.533507
 6.67682 289.343 0.531047
 6.70984 288.334 0.528225
 6.74286 288.609 0.526822
 6.77588 288.253 0.526165
 6.80889 286.64 0.524975
 6.84191 286.387 0.524743
 6.87492 288.943 0.527412
 6.90794 293.029 0.530842
 6.94095 288.156 0.526742
 6.97396 283.935 0.523011
 7.00697 282.756 0.522176
 7.03998 282.643 0.52193
 7.07298 281.108 0.520887
 7.10599 280.642 0.520126
 7.139 279.833 0.519751
 7.172 279.094 0.519002
 7.205 278.329 0.518525
 7.238 277.205 0.517196
 7.271 276.152 0.516727
 7.304 275.73 0.516083
 7.337 274.831 0.51521
 7.37 274.415 0.515131
 7.40299 273.146 0.514281
 7.43599 276.611 0.547771
 7.46898 279.124 0.575121
 7.50197 280.584 0.596527
 7.53496 281.274 0.617698
 7.56795 283.346 0.640382
 7.60094 283.738 0.660062
 7.63393 284.301 0.681679
 7.66691 285.198 0.702706
 7.6999 286.162 0.725364
 7.73288 286.309 0.748709
 7.76586 286.328 0.771342
 7.79884 286.207 0.796456
 7.83182 286.623 0.822615
 7.8648 283.952 0.846856
 7.89778 281.209 0.871131
 7.93075 272.893 0.890994
 7.96373 264.72 0.919281
 7.9967 259.741 0.966059
 8.02967 255.334 1.02625
 8.06264 249.13 1.09855
 8.09561 240.403 1.18246
 8.12858 225.903 1.278
 8.16154 211.686 1.3771
 8.19451 183.712 1.44538
 8.22747 139.982 1.48988
 8.26043 87.5848 1.53596
 8.29339 34.615 1.84331
 8.32635 0.000000000000000000e+00 0.000000000000000000e+00
 8.35931 0.000000000000000000e+00 0.000000000000000000e+00
 8.39227 0.000000000000000000e+00 0.000000000000000000e+00
 8.42522 0.000000000000000000e+00 0.000000000000000000e+00
 8.45818 0.000000000000000000e+00 0.000000000000000000e+00
 8.49113 0.000000000000000000e+00 0.000000000000000000e+00
 8.52408 0.000000000000000000e+00 0.000000000000000000e+00
 8.55703 0.000000000000000000e+00 0.000000000000000000e+00
 8.58998 0.000000000000000000e+00 0.000000000000000000e+00
 8.62293 0.000000000000000000e+00 0.000000000000000000e+00
 8.65587 0.000000000000000000e+00 0.000000000000000000e+00
 8.68881 0.000000000000000000e+00 0.000000000000000000e+00
 8.72176 0.000000000000000000e+00 0.000000000000000000e+00
 8.7547 0.000000000000000000e+00 0.000000000000000000e+00
 8.7794 0.000000000000000000e+00 0.000000000000000000e+00